# TOF 2D monitor output
# 
#     counts=       897
#     total intensity=9.0041e+08 +/-        nan neutron counts
# 
#                         intensity +- stdv [n/cm^2/AA] 
# x [m]       y [m]       wavelength [AA]
 #                             0.0000               0.1000               0.2000               0.3000               0.4000               0.5000               0.6000               0.7000               0.8000               0.9000               1.0000               1.1000               1.2000               1.3000               1.4000               1.5000               1.6000               1.7000               1.8000               1.9000               2.0000               2.1000               2.2000               2.3000               2.4000               2.5000               2.6000               2.7000               2.8000               2.9000               3.0000               3.1000               3.2000               3.3000               3.4000               3.5000               3.6000               3.7000               3.8000               3.9000               4.0000               4.1000               4.2000               4.3000               4.4000               4.5000               4.6000               4.7000               4.8000               4.9000               5.0000               5.1000               5.2000               5.3000               5.4000               5.5000               5.6000               5.7000               5.8000               5.9000               6.0000               6.1000               6.2000               6.3000               6.4000               6.5000               6.6000               6.7000               6.8000               6.9000               7.0000               7.1000               7.2000               7.3000               7.4000               7.5000               7.6000               7.7000               7.8000               7.9000               8.0000               8.1000               8.2000               8.3000               8.4000               8.5000               8.6000               8.7000               8.8000               8.9000               9.0000               9.1000               9.2000               9.3000               9.4000               9.5000               9.6000               9.7000               9.8000               9.9000              10.0000         
#
      0.0000      0.0000  0.0000e+00  0.00000  0.0000e+00  0.00000  1.3306e+05  0.00000  3.7581e+05  0.00000  3.0517e+05  0.00000  3.1025e+05  0.00000  1.7794e+05  0.00000  1.8362e+05  0.00000  3.5280e+05  0.00000  1.1388e+05  0.00000  2.0500e+05  0.00000  2.2594e+05  0.00000  1.8746e+05  0.00000  5.9110e+04  0.00000  1.1251e+05  0.00000  5.8515e+04  0.00000  3.7925e+04  0.00000  4.5151e+04  0.00000  1.2961e+04  0.00000  4.6441e+04  0.00000  5.3307e+03  0.00000  1.0876e+04  0.00000  2.0125e+04  0.00000  2.3883e+03  0.00000  6.6957e+03  0.00000  1.4909e+04  0.00000  2.9591e+03  0.00000  8.1261e+02  0.00000  1.8038e+03  0.00000  3.1234e+03  0.00000  3.5221e+03  0.00000  6.8442e+03  0.00000  9.4303e+02  0.00000  7.4902e+02  0.00000  3.2341e+03  0.00000  2.5012e+03  0.00000  9.1355e+02  0.00000  2.1990e+03  0.00000  1.6681e+02  0.00000  3.8467e+02  0.00000  5.6715e+01  0.00000  2.0017e+02  0.01742  3.0089e+02  0.00000  2.1738e+02  0.00788  1.5231e+02  0.00000  6.3251e+02  0.00000  4.0745e+02  0.00000  -3.3733e-03  0.00000  1.5263e+01  0.02974  2.1724e+01  0.03053  2.3318e+01  0.03403  3.6820e+02  0.00000  -6.7465e-03  0.00000  1.6069e+02  0.00000  1.2719e+02  0.00000  -1.6866e-02  0.00000  1.5598e+02  0.00000  8.5595e+00  0.00000  5.6352e+01  0.00000  3.2893e+01  0.00000  7.8680e+00  0.04142  -6.7465e-03  0.00000  -6.7465e-03  0.00000  0.0000e+00  0.00000  6.8451e+00  0.00000  1.0005e+01  0.03673  9.0277e+01  0.00000  -3.3733e-03  0.00000  6.0220e+01  0.01497  -1.6866e-02  0.00000  7.6943e+00  0.00000  5.5902e+01  0.00000  1.4528e+01  0.03733  0.0000e+00  0.00000  9.8390e+00  0.00000  -6.7465e-03  0.00000  3.0576e+00  0.06648  5.5490e-01  0.00000  2.5210e-01  0.16468  8.7274e+00  0.00000  2.0742e+00  0.00000  6.6982e+00  0.00000  2.2756e+00  0.05449  2.5826e-01  0.28357  -3.3733e-03  0.00000  2.1256e+00  0.00000  7.7272e-01  0.21030  -6.7465e-03  0.00000  6.3302e+00  0.03265  1.8169e+00  0.00000  8.8899e+00  0.02755  2.7115e+00  0.00000  4.1440e-01  0.12811  1.5910e+00  0.00000  6.0270e+00  0.00000  1.7243e+00  0.08859  -1.0120e-02  0.00000  1.9674e+00  0.00000  8.6921e-01  0.00000  -6.7465e-03  0.00000

