# TOF 2D monitor output
# 
#     counts=      1044
#     total intensity=8.9295e+08 +/-        nan neutron counts
# 
#                         intensity +- stdv [n/cm^2/AA] 
# x [m]       y [m]       wavelength [AA]
 #                             0.0000               0.1000               0.2000               0.3000               0.4000               0.5000               0.6000               0.7000               0.8000               0.9000               1.0000               1.1000               1.2000               1.3000               1.4000               1.5000               1.6000               1.7000               1.8000               1.9000               2.0000               2.1000               2.2000               2.3000               2.4000               2.5000               2.6000               2.7000               2.8000               2.9000               3.0000               3.1000               3.2000               3.3000               3.4000               3.5000               3.6000               3.7000               3.8000               3.9000               4.0000               4.1000               4.2000               4.3000               4.4000               4.5000               4.6000               4.7000               4.8000               4.9000               5.0000               5.1000               5.2000               5.3000               5.4000               5.5000               5.6000               5.7000               5.8000               5.9000               6.0000               6.1000               6.2000               6.3000               6.4000               6.5000               6.6000               6.7000               6.8000               6.9000               7.0000               7.1000               7.2000               7.3000               7.4000               7.5000               7.6000               7.7000               7.8000               7.9000               8.0000               8.1000               8.2000               8.3000               8.4000               8.5000               8.6000               8.7000               8.8000               8.9000               9.0000               9.1000               9.2000               9.3000               9.4000               9.5000               9.6000               9.7000               9.8000               9.9000              10.0000         
#
      0.0000      0.0000  0.0000e+00  0.00000  0.0000e+00  0.00000  2.9671e+05  0.00000  3.9194e+05  0.00000  3.4289e+05  0.00000  2.2830e+05  0.00000  1.4589e+05  0.00000  1.9060e+05  0.00000  3.7992e+05  0.00000  1.2198e+05  0.00000  2.3532e+05  0.00000  1.1486e+05  0.00000  7.1185e+04  0.00000  5.9755e+04  0.00000  8.4759e+04  0.00000  5.4875e+04  0.00000  4.3164e+04  0.00000  6.3548e+04  0.00000  5.1679e+04  0.00000  1.9000e+04  0.00000  4.0830e+03  0.00000  3.1914e+04  0.00000  1.0232e+04  0.00000  8.2367e+03  0.00000  1.3284e+03  0.00000  8.0762e+03  0.00000  5.2507e+03  0.00000  2.8819e+03  0.00000  6.2273e+03  0.00000  9.5770e+03  0.00000  1.6302e+03  0.00000  3.3630e+03  0.00000  8.2043e+03  0.00000  1.3957e+03  0.00000  0.0000e+00  0.00000  1.2017e+03  0.00000  2.4847e+03  0.00000  9.1765e+02  0.00000  7.1850e+02  0.00000  4.9869e+02  0.00000  4.5836e+02  0.00000  1.4885e+03  0.00000  2.4277e+02  0.00000  1.0953e+03  0.00000  -2.0240e-02  0.00000  3.6466e+02  0.00000  1.9444e+01  0.04166  8.0409e+02  0.00000  3.8730e+02  0.00000  2.9500e+02  0.00000  1.1992e+02  0.01677  2.9190e+02  0.00000  1.1065e+02  0.00000  1.3751e+02  0.00000  6.2101e+01  0.00000  2.2796e+02  0.00000  1.5369e-01  0.30114  -1.3493e-02  0.00000  3.5682e+01  0.02382  3.4207e+01  0.00000  3.8513e+02  0.00000  3.2519e+02  0.00000  1.9518e+02  0.00000  0.0000e+00  0.00000  5.4373e+01  0.00000  1.0598e+02  0.00000  4.0759e+01  0.00000  1.0052e+01  0.00000  1.6854e+01  0.00000  3.0235e+00  0.06686  4.6159e+00  0.00000  1.3187e+01  0.02262  3.0184e+01  0.00000  1.0709e+01  0.04349  2.9720e+01  0.00000  1.6238e+01  0.00000  3.8252e+01  0.00000  4.9447e+00  0.07394  7.5576e+00  0.00000  3.1534e-01  0.14705  3.3209e+00  0.07815  1.5821e+00  0.11335  6.1834e+00  0.00000  -3.3733e-03  0.00000  -6.7465e-03  0.00000  5.8196e+00  0.00000  -4.9230e-03  0.27609  1.1781e+01  0.00000  4.0211e+00  0.00000  5.1412e+00  0.07251  -3.3733e-03  0.00000  -6.7465e-03  0.00000  2.8357e+00  0.00000  -3.3733e-03  0.00000  9.1732e-01  0.00000  4.1574e-01  0.12790  2.7117e+00  0.00000  2.6943e+00  0.00000  -3.3733e-03  0.00000  9.7505e+00  0.00000

